Folder: Order/MyMatlabLib/UV-abs Gen

Note: README.md
# Order
A backup of some routine programs

File: It-5000s.txt
July 9, 2019   19:34:30
Bulk Electrolysis with Coulometry
File: it-5000s
Data Source:  Experiment
Instrument Model:  CHI604E
Header:
Note:

Init E (V) = 2.5
End Current Ratio (%) = 10
Data Storage Interval (s) = 5

Total Q = -3.2446e+0C
End i = -8.6441e-4A

Time/sec, Charge/C, Current/A

5.000, -2.937e-3, -5.874e-4
25.000, -1.201e-2, -4.364e-4
45.000, -2.039e-2, -4.102e-4
65.000, -2.835e-2, -3.902e-4
85.000, -3.592e-2, -3.719e-4
105.000, -4.317e-2, -3.575e-4
125.000, -5.021e-2, -3.500e-4
145.000, -5.715e-2, -3.458e-4
165.000, -6.406e-2, -3.455e-4
185.000, -7.099e-2, -3.473e-4
205.000, -7.796e-2, -3.493e-4
225.000, -8.501e-2, -3.553e-4
245.000, -9.220e-2, -3.613e-4
265.000, -9.949e-2, -3.678e-4
285.000, -1.070e-1, -3.778e-4
305.000, -1.147e-1, -3.873e-4
325.000, -1.225e-1, -3.967e-4
345.000, -1.305e-1, -4.028e-4
365.000, -1.386e-1, -4.066e-4
385.000, -1.468e-1, -4.114e-4
405.000, -1.551e-1, -4.153e-4
425.000, -1.635e-1, -4.188e-4
445.000, -1.719e-1, -4.212e-4
465.000, -1.803e-1, -4.227e-4
485.000, -1.888e-1, -4.232e-4
505.000, -1.973e-1, -4.239e-4
525.000, -2.058e-1, -4.274e-4
545.000, -2.143e-1, -4.267e-4
565.000, -2.229e-1, -4.287e-4
585.000, -2.315e-1, -4.298e-4
605.000, -2.400e-1, -4.297e-4
625.000, -2.487e-1, -4.350e-4
645.000, -2.575e-1, -4.410e-4
665.000, -2.664e-1, -4.466e-4
685.000, -2.753e-1, -4.489e-4
705.000, -2.843e-1, -4.514e-4
725.000, -2.935e-1, -4.608e-4
745.000, -3.028e-1, -4.697e-4
765.000, -3.123e-1, -4.800e-4
785.000, -3.220e-1, -4.872e-4
805.000, -3.319e-1, -4.962e-4
825.000, -3.419e-1, -5.005e-4
845.000, -3.519e-1, -5.031e-4
865.000, -3.621e-1, -5.161e-4
885.000, -3.725e-1, -5.194e-4
905.000, -3.829e-1, -5.223e-4
925.000, -3.934e-1, -5.231e-4
945.000, -4.039e-1, -5.270e-4
965.000, -4.145e-1, -5.285e-4
985.000, -4.250e-1, -5.298e-4
1005.000, -4.357e-1, -5.296e-4
1025.000, -4.462e-1, -5.273e-4
1045.000, -4.568e-1, -5.327e-4
1065.000, -4.675e-1, -5.410e-4
1085.000, -4.784e-1, -5.435e-4
1105.000, -4.893e-1, -5.469e-4
1125.000, -5.002e-1, -5.426e-4
1145.000, -5.111e-1, -5.472e-4
1165.000, -5.220e-1, -5.474e-4
1185.000, -5.329e-1, -5.388e-4
1205.000, -5.436e-1, -5.361e-4
1225.000, -5.543e-1, -5.357e-4
1245.000, -5.650e-1, -5.338e-4
1265.000, -5.757e-1, -5.338e-4
1285.000, -5.864e-1, -5.344e-4
1305.000, -5.971e-1, -5.361e-4
1325.000, -6.078e-1, -5.381e-4
1345.000, -6.186e-1, -5.410e-4
1365.000, -6.295e-1, -5.472e-4
1385.000, -6.405e-1, -5.511e-4
1405.000, -6.516e-1, -5.565e-4
1425.000, -6.627e-1, -5.562e-4
1445.000, -6.739e-1, -5.577e-4
1465.000, -6.850e-1, -5.587e-4
1485.000, -6.963e-1, -5.637e-4
1505.000, -7.076e-1, -5.664e-4
1525.000, -7.190e-1, -5.679e-4
1545.000, -7.303e-1, -5.699e-4
1565.000, -7.418e-1, -5.704e-4
1585.000, -7.532e-1, -5.725e-4
1605.000, -7.646e-1, -5.721e-4
1625.000, -7.761e-1, -5.756e-4
1645.000, -7.877e-1, -5.765e-4
1665.000, -7.992e-1, -5.784e-4
1685.000, -8.108e-1, -5.833e-4
1705.000, -8.226e-1, -5.889e-4
1725.000, -8.344e-1, -5.940e-4
1745.000, -8.464e-1, -5.989e-4
1765.000, -8.584e-1, -6.039e-4
1785.000, -8.705e-1, -6.053e-4
1805.000, -8.826e-1, -6.037e-4
1825.000, -8.947e-1, -6.073e-4
1845.000, -9.069e-1, -6.125e-4
1865.000, -9.193e-1, -6.215e-4
1885.000, -9.317e-1, -6.205e-4
1905.000, -9.441e-1, -6.199e-4
1925.000, -9.565e-1, -6.186e-4
1945.000, -9.688e-1, -6.133e-4
1965.000, -9.811e-1, -6.157e-4
1985.000, -9.934e-1, -6.143e-4
2005.000, -1.006e+0, -6.177e-4
2025.000, -1.018e+0, -6.263e-4
2045.000, -1.031e+0, -6.320e-4
2065.000, -1.043e+0, -6.324e-4
2085.000, -1.056e+0, -6.365e-4
2105.000, -1.069e+0, -6.384e-4
2125.000, -1.082e+0, -6.458e-4
2145.000, -1.095e+0, -6.522e-4
2165.000, -1.108e+0, -6.553e-4
2185.000, -1.121e+0, -6.613e-4
2205.000, -1.134e+0, -6.633e-4
2225.000, -1.148e+0, -6.698e-4
2245.000, -1.161e+0, -6.728e-4
2265.000, -1.174e+0, -6.740e-4
2285.000, -1.188e+0, -6.738e-4
2305.000, -1.201e+0, -6.742e-4
2325.000, -1.215e+0, -6.778e-4
2345.000, -1.229e+0, -6.820e-4
2365.000, -1.242e+0, -6.768e-4
2385.000, -1.256e+0, -6.831e-4
2405.000, -1.269e+0, -6.816e-4
2425.000, -1.283e+0, -6.819e-4
2445.000, -1.297e+0, -6.846e-4
2465.000, -1.310e+0, -6.891e-4
2485.000, -1.324e+0, -6.953e-4
2505.000, -1.338e+0, -6.940e-4
2525.000, -1.352e+0, -6.974e-4
2545.000, -1.366e+0, -6.959e-4
2565.000, -1.380e+0, -6.969e-4
2585.000, -1.394e+0, -6.957e-4
2605.000, -1.408e+0, -6.952e-4
2625.000, -1.422e+0, -6.966e-4
2645.000, -1.436e+0, -6.970e-4
2665.000, -1.450e+0, -7.011e-4
2685.000, -1.464e+0, -7.063e-4
2705.000, -1.478e+0, -7.079e-4
2725.000, -1.492e+0, -7.049e-4
2745.000, -1.506e+0, -7.053e-4
2765.000, -1.520e+0, -7.059e-4
2785.000, -1.534e+0, -7.105e-4
2805.000, -1.549e+0, -7.161e-4
2825.000, -1.563e+0, -7.201e-4
2845.000, -1.577e+0, -7.217e-4
2865.000, -1.592e+0, -7.325e-4
2885.000, -1.607e+0, -7.283e-4
2905.000, -1.621e+0, -7.307e-4
2925.000, -1.636e+0, -7.343e-4
2945.000, -1.651e+0, -7.376e-4
2965.000, -1.665e+0, -7.351e-4
2985.000, -1.680e+0, -7.379e-4
3005.000, -1.695e+0, -7.396e-4
3025.000, -1.710e+0, -7.368e-4
3045.000, -1.724e+0, -7.398e-4
3065.000, -1.739e+0, -7.440e-4
3085.000, -1.754e+0, -7.452e-4
3105.000, -1.769e+0, -7.460e-4
3125.000, -1.784e+0, -7.461e-4
3145.000, -1.799e+0, -7.496e-4
3165.000, -1.814e+0, -7.568e-4
3185.000, -1.829e+0, -7.569e-4
3205.000, -1.844e+0, -7.550e-4
3225.000, -1.859e+0, -7.621e-4
3245.000, -1.875e+0, -7.676e-4
3265.000, -1.890e+0, -7.708e-4
3285.000, -1.906e+0, -7.747e-4
3305.000, -1.921e+0, -7.817e-4
3325.000, -1.937e+0, -7.796e-4
3345.000, -1.952e+0, -7.761e-4
3365.000, -1.968e+0, -7.725e-4
3385.000, -1.983e+0, -7.703e-4
3405.000, -1.999e+0, -7.731e-4
3425.000, -2.014e+0, -7.738e-4
3445.000, -2.030e+0, -7.748e-4
3465.000, -2.045e+0, -7.699e-4
3485.000, -2.060e+0, -7.666e-4
3505.000, -2.076e+0, -7.669e-4
3525.000, -2.091e+0, -7.749e-4
3545.000, -2.107e+0, -7.750e-4
3565.000, -2.122e+0, -7.772e-4
3585.000, -2.138e+0, -7.866e-4
3605.000, -2.154e+0, -7.852e-4
3625.000, -2.169e+0, -7.827e-4
3645.000, -2.185e+0, -7.844e-4
3665.000, -2.201e+0, -7.918e-4
3685.000, -2.217e+0, -7.888e-4
3705.000, -2.232e+0, -7.863e-4
3725.000, -2.248e+0, -7.897e-4
3745.000, -2.264e+0, -7.947e-4
3765.000, -2.280e+0, -7.908e-4
3785.000, -2.296e+0, -7.966e-4
3805.000, -2.312e+0, -7.997e-4
3825.000, -2.328e+0, -7.998e-4
3845.000, -2.344e+0, -8.014e-4
3865.000, -2.360e+0, -8.025e-4
3885.000, -2.376e+0, -8.027e-4
3905.000, -2.392e+0, -8.078e-4
3925.000, -2.408e+0, -8.069e-4
3945.000, -2.424e+0, -8.035e-4
3965.000, -2.440e+0, -8.068e-4
3985.000, -2.456e+0, -8.130e-4
4005.000, -2.473e+0, -8.139e-4
4025.000, -2.489e+0, -8.149e-4
4045.000, -2.505e+0, -8.163e-4
4065.000, -2.522e+0, -8.160e-4
4085.000, -2.538e+0, -8.212e-4
4105.000, -2.554e+0, -8.225e-4
4125.000, -2.571e+0, -8.256e-4
4145.000, -2.587e+0, -8.236e-4
4165.000, -2.604e+0, -8.220e-4
4185.000, -2.620e+0, -8.227e-4
4205.000, -2.637e+0, -8.261e-4
4225.000, -2.653e+0, -8.204e-4
4245.000, -2.670e+0, -8.179e-4
4265.000, -2.686e+0, -8.177e-4
4285.000, -2.702e+0, -8.180e-4
4305.000, -2.719e+0, -8.142e-4
4325.000, -2.735e+0, -8.158e-4
4345.000, -2.751e+0, -8.196e-4
4365.000, -2.768e+0, -8.248e-4
4385.000, -2.784e+0, -8.301e-4
4405.000, -2.801e+0, -8.267e-4
4425.000, -2.817e+0, -8.302e-4
4445.000, -2.834e+0, -8.300e-4
4465.000, -2.851e+0, -8.352e-4
4485.000, -2.867e+0, -8.336e-4
4505.000, -2.884e+0, -8.387e-4
4525.000, -2.901e+0, -8.369e-4
4545.000, -2.918e+0, -8.386e-4
4565.000, -2.935e+0, -8.478e-4
4585.000, -2.952e+0, -8.492e-4
4605.000, -2.969e+0, -8.503e-4
4625.000, -2.986e+0, -8.513e-4
4645.000, -3.003e+0, -8.555e-4
4665.000, -3.020e+0, -8.571e-4
4685.000, -3.037e+0, -8.606e-4
4705.000, -3.054e+0, -8.623e-4
4725.000, -3.071e+0, -8.587e-4
4745.000, -3.089e+0, -8.642e-4
4765.000, -3.106e+0, -8.694e-4
4785.000, -3.123e+0, -8.656e-4
4805.000, -3.141e+0, -8.679e-4
4825.000, -3.158e+0, -8.697e-4
4845.000, -3.175e+0, -8.734e-4
4865.000, -3.193e+0, -8.664e-4
4885.000, -3.210e+0, -8.635e-4
4905.000, -3.227e+0, -8.610e-4
4925.000, -3.245e+0, -8.644e-4